File: L2_techniques/ec_ms_quantification/the_good_bit.csv
ixdat version = 0.2.7.dev1
name = 2022-07-19 10_02_32 HER_OER_calibration AND HER_OER_calibration_01_01_CVA.mpt AND HER_OER_calibration_01_02_CP.mpt AND HER_OER_calibration_01_03_CVA.mpt AND HER_OER_calibration_01_04_CP.mpt
technique = EC-MS
tstamp = 1658217752.0
backend_name = BackendBase(none, address=none)
id = 16
timecol 'time/s' for: 'Ewe/V' and '<I>/mA' and 'selector'
timecol 'C6M44 time [s]' for: 'M44'
timecol 'C3M28 time [s]' for: 'M28'
timecol 'C4M32 time [s]' for: 'M32'
timecol 'C1M4 time [s]' for: 'M4'
timecol 'C0M2 time [s]' for: 'M2'
timecol 'C5M40 time [s]' for: 'M40'
timecol 'C2M18 time [s]' for: 'M18'
aliases = {"M2": ["M2 [A]"], "M4": ["M4 [A]"], "M18": ["M18 [A]"], "M28": ["M28 [A]"], "M32": ["M32 [A]"], "M40": ["M40 [A]"], "M44": ["M44 [A]"], "t": ["time/s"], "raw_potential": ["Ewe/V"], "raw_current": ["I/mA", "<I>/mA"], "cycle": ["cycle number"]}
N_header_lines = 18

time/s,	Ewe/V,	<I>/mA,	selector,	C6M44 time [s],	M44,	C3M28 time [s],	M28,	C4M32 time [s],	M32,	C1M4 time [s],	M4,	C0M2 time [s],	M2,	C5M40 time [s],	M40,	C2M18 time [s],	M18
5000.23,	1.54365,	0.000820636,	0,	5000.68,	4.30076e-13,	5000.45,	9.517951e-13,	5000.53,	7.113168e-12,	5000.31,	4.829916e-10,	5000.23,	8.337558e-12,	5000.6,	4.681783e-14,	5000.38,	3.235823e-11
5001.9,	1.51029,	0.000342,	0,	5007.95,	3.873973e-13,	5007.73,	9.483526e-13,	5007.8,	5.10401e-12,	5007.58,	4.874602e-10,	5007.51,	8.419425e-12,	5007.88,	2.529621e-14,	5007.65,	3.251585e-11
5003.57,	1.47706,	0.000131933,	0,	5015.23,	3.772358e-13,	5015.01,	9.309173e-13,	5015.08,	4.076784e-12,	5014.86,	4.890998e-10,	5014.78,	8.512214e-12,	5015.15,	2.559996e-14,	5014.93,	3.236201e-11
5005.23,	1.44359,	2.05974e-05,	0,	5022.5,	3.622388e-13,	5022.28,	9.263369e-13,	5022.36,	3.566749e-12,	5022.13,	4.915717e-10,	5022.06,	8.532387e-12,	5022.43,	3.723557e-14,	5022.21,	3.231693e-11
5006.9,	1.41034,	-4.43489e-05,	0,	5029.78,	3.461522e-13,	5029.56,	9.374663e-13,	5029.63,	3.319927e-12,	5029.41,	4.919487e-10,	5029.33,	8.600702e-12,	5029.7,	3.634457e-14,	5029.48,	3.238568e-11
5008.56,	1.37699,	-9.21639e-05,	0,	5037.06,	3.239705e-13,	5036.83,	9.147337e-13,	5036.91,	3.207738e-12,	5036.68,	4.916502e-10,	5036.61,	8.627816e-12,	5036.98,	3.690752e-14,	5036.76,	3.255089e-11
5010.23,	1.34364,	-0.00014234,	0,	5044.33,	3.313414e-13,	5044.11,	9.262842e-13,	5044.18,	3.132473e-12,	5043.96,	4.920468e-10,	5043.88,	8.623507e-12,	5044.26,	4.26585e-14,	5044.03,	3.223848e-11
5011.89,	1.31046,	-0.000188294,	0,	5051.61,	3.229823e-13,	5051.38,	9.245671e-13,	5051.46,	3.06385e-12,	5051.23,	4.920062e-10,	5051.16,	8.65743e-12,	5051.53,	3.591932e-14,	5051.31,	3.218989e-11
5013.56,	1.27725,	-0.000235971,	0,	5058.88,	3.417418e-13,	5058.66,	9.212785e-13,	5058.73,	3.050809e-12,	5058.51,	4.923707e-10,	5058.43,	8.664915e-12,	5058.81,	3.718291e-14,	5058.58,	3.232848e-11
5015.23,	1.24374,	-0.00029486,	0,	5066.16,	3.260157e-13,	5065.93,	9.152076e-13,	5066.01,	3.052952e-12,	5065.79,	4.912427e-10,	5065.71,	8.672809e-12,	5066.08,	2.913559e-14,	5065.86,	3.207799e-11
5016.89,	1.2104,	-0.000368057,	0,	5073.43,	3.202485e-13,	5073.21,	9.166655e-13,	5073.28,	3.047103e-12,	5073.06,	4.915905e-10,	5072.99,	8.742678e-12,	5073.36,	2.79368e-14,	5073.13,	3.207137e-11
5018.56,	1.17713,	-0.000462365,	0,	5080.71,	3.01817e-13,	5080.48,	9.290625e-13,	5080.56,	3.043349e-12,	5080.34,	4.919454e-10,	5080.26,	1.095041e-11,	5080.63,	4.18728e-14,	5080.41,	3.215505e-11
5020.22,	1.14389,	-0.000567591,	0,	5087.98,	2.974026e-13,	5087.76,	9.075409e-13,	5087.84,	3.038044e-12,	5087.61,	4.917171e-10,	5087.54,	8.816935e-12,	5087.91,	5.106626e-14,	5087.69,	3.229815e-11
5021.89,	1.110606,	-0.000697924,	0,	5095.26,	2.940775e-13,	5095.04,	9.103071e-13,	5095.11,	3.042576e-12,	5094.89,	4.913162e-10,	5094.81,	8.719197e-12,	5095.18,	2.872249e-14,	5094.96,	3.208176e-11
5023.55,	1.07728,	-0.000858411,	0,	5102.54,	2.966776e-13,	5102.31,	9.069294e-13,	5102.39,	3.052531e-12,	5102.16,	4.927499e-10,	5102.09,	8.72481e-12,	5102.46,	2.6009e-14,	5102.24,	3.215578e-11
5025.22,	1.04392,	-0.00105722,	0,	5109.81,	2.870629e-13,	5109.59,	9.059493e-13,	5109.66,	3.042576e-12,	5109.44,	4.914522e-10,	5109.36,	8.715617e-12,	5109.74,	4.435544e-14,	5109.51,	3.220638e-11
5026.89,	1.01065,	-0.0013206,	0,	5117.09,	3.097469e-13,	5116.86,	9.030859e-13,	5116.94,	3.036991e-12,	5116.71,	4.904777e-10,	5116.64,	8.691822e-12,	5117.01,	3.784711e-14,	5116.79,	3.207363e-11
5028.55,	0.9772411,	-0.00164477,	0,	5124.36,	3.049882e-13,	5124.14,	9.169085e-13,	5124.21,	3.037076e-12,	5123.99,	4.913165e-10,	5123.91,	8.732213e-12,	5124.29,	2.479401e-14,	5124.06,	3.205338e-11
5030.22,	0.943898,	-0.00208448,	0,	5131.64,	3.325281e-13,	5131.41,	9.088247e-13,	5131.49,	3.028798e-12,	5131.27,	4.914786e-10,	5131.19,	8.699328e-12,	5131.56,	3.435197e-14,	5131.34,	3.216268e-11
5031.88,	0.910642,	-0.00269743,	0,	5138.91,	3.426693e-13,	5138.69,	9.257052e-13,	5138.76,	3.018835e-12,	5138.54,	4.912212e-10,	5138.47,	8.717164e-12,	5138.84,	3.163039e-14,	5138.62,	3.214804e-11
5033.55,	0.877227,	-0.00361538,	0,	5146.19,	3.424748e-13,	5145.96,	9.22222e-13,	5146.04,	3.051024e-12,	5145.82,	4.905282e-10,	5145.74,	8.684747e-12,	5146.11,	2.80664e-14,	5145.89,	3.203868e-11
5035.22,	0.843971,	-0.00508519,	0,	5153.46,	3.488576e-13,	5153.24,	9.145433e-13,	5153.31,	3.131165e-12,	5153.09,	4.908617e-10,	5153.02,	8.711461e-12,	5153.39,	4.034595e-14,	5153.16,	3.214759e-11
5036.88,	0.8106,	-0.00780148,	0,	5160.74,	3.664872e-13,	5160.52,	9.187593e-13,	5160.59,	5.66607e-12,	5160.37,	4.859511e-10,	5160.29,	8.586337e-12,	5160.66,	3.503642e-14,	5160.44,	3.218258e-11
5038.55,	0.77737,	-0.0135134,	0,	5168.01,	3.781188e-13,	5167.79,	9.403862e-13,	5167.87,	7.713759e-12,	5167.64,	4.807312e-10,	5167.57,	8.277469e-12,	5167.94,	2.832965e-14,	5167.72,	3.233346e-11
5040.21,	0.744034,	-0.0235316,	0,	5175.29,	3.61692e-13,	5175.07,	9.217564e-13,	5175.14,	5.488212e-12,	5174.92,	4.873685e-10,	5174.84,	8.36929e-12,	5175.21,	3.105123e-14,	5174.99,	3.238594e-11
5041.88,	0.710632,	-0.0242301,	0,	5182.57,	3.324147e-13,	5182.34,	9.280378e-13,	5182.42,	4.279692e-12,	5182.19,	4.905198e-10,	5182.12,	8.468429e-12,	5182.49,	4.126934e-14,	5182.27,	3.245364e-11
5043.54,	0.677218,	-0.0120937,	0,	5189.84,	3.305841e-13,	5189.62,	9.262721e-13,	5189.69,	3.667318e-12,	5189.47,	4.91649e-10,	5189.39,	8.521339e-12,	5189.77,	3.623116e-14,	5189.54,	3.241261e-11
5045.21,	0.643977,	-0.0051928,	0,	5197.12,	3.258456e-13,	5196.89,	9.106149e-13,	5196.97,	3.392462e-12,	5196.74,	4.913231e-10,	5196.67,	8.549794e-12,	5197.04,	2.381391e-14,	5196.82,	3.233535e-11
5046.88,	0.610671,	-0.00266537,	0,	5204.39,	3.03275e-13,	5204.17,	9.033695e-13,	5204.24,	3.226101e-12,	5204.02,	4.924918e-10,	5203.94,	8.572761e-12,	5204.32,	1.987327e-14,	5204.09,	3.239366e-11
5048.54,	0.577484,	-0.00163862,	0,	5211.67,	3.161297e-13,	5211.44,	9.162241e-13,	5211.52,	3.123596e-12,	5211.3,	4.920993e-10,	5211.22,	8.624221e-12,	5211.59,	4.491028e-14,	5211.37,	3.239683e-11
5050.21,	0.544042,	-0.00119385,	0,	5218.94,	3.06588e-13,	5218.72,	9.135349e-13,	5218.79,	3.064773e-12,	5218.57,	4.913417e-10,	5218.49,	8.622714e-12,	5218.87,	3.789571e-14,	5218.64,	3.223343e-11
5051.87,	0.51089,	-0.00099586,	0,	5226.22,	3.230713e-13,	5225.99,	9.03337e-13,	5226.07,	3.060456e-12,	5225.85,	4.925379e-10,	5225.77,	8.648983e-12,	5226.14,	4.229399e-14,	5225.92,	3.240698e-11
5053.54,	0.4774535,	-0.000835603,	0,	5233.49,	2.997313e-13,	5233.27,	8.972175e-13,	5233.35,	3.05351e-12,	5233.12,	4.92508e-10,	5233.05,	8.648338e-12,	5233.42,	2.050912e-14,	5233.2,	3.228059e-11
5055.2,	0.4442583,	-0.000741997,	0,	5240.77,	2.950009e-13,	5240.55,	9.083793e-13,	5240.62,	3.028838e-12,	5240.4,	4.920157e-10,	5240.32,	8.660148e-12,	5240.7,	3.771346e-14,	5240.47,	3.235562e-11
5056.87,	0.410861,	-0.000757734,	0,	5248.05,	2.970462e-13,	5247.82,	9.075247e-13,	5247.9,	3.072436e-12,	5247.67,	4.916166e-10,	5247.6,	1.436679e-11,	5247.97,	4.439188e-14,	5247.75,	3.235756e-11
5058.54,	0.3776,	-0.000915769,	0,	5255.32,	2.814173e-13,	5255.1,	9.079013e-13,	5255.17,	3.086405e-12,	5254.95,	4.920179e-10,	5254.87,	8.872732e-12,	5255.25,	3.653896e-14,	5255.02,	3.237541e-11
5060.2,	0.344176,	-0.00137439,	0,	5262.6,	2.7921e-13,	5262.37,	8.908711e-13,	5262.45,	3.029538e-12,	5262.22,	4.90981e-10,	5262.15,	8.719509e-12,	5262.52,	4.243169e-14,	5262.3,	3.235346e-11
5061.87,	0.310785,	-0.00285053,	0,	5269.87,	2.918743e-13,	5269.65,	9.121214e-13,	5269.72,	3.061546e-12,	5269.5,	4.912029e-10,	5269.42,	8.702721e-12,	5269.8,	2.243691e-14,	5269.57,	3.214921e-11
5063.53,	0.277535,	-0.00435954,	0,	5277.15,	2.775617e-13,	5276.92,	8.986836e-13,	5277,	3.029057e-12,	5276.78,	4.91987e-10,	5276.7,	8.694631e-12,	5277.07,	3.440057e-14,	5276.85,	3.213571e-11
5065.2,	0.244188,	-0.00385006,	0,	5284.42,	2.828429e-13,	5284.2,	9.002063e-13,	5284.27,	3.057974e-12,	5284.05,	4.914839e-10,	5283.98,	8.702842e-12,	5284.35,	1.230385e-14,	5284.125,	3.204541e-11
5066.87,	0.210951,	-0.00374596,	0,	5291.7,	2.978886e-13,	5291.47,	8.967517e-13,	5291.55,	3.028178e-12,	5291.33,	4.912347e-10,	5291.25,	8.69691e-12,	5291.62,	3.386192e-14,	5291.4,	3.204347e-11
5068.53,	0.177459,	-0.00426615,	0,	5298.97,	3.042227e-13,	5298.75,	8.99052e-13,	5298.82,	3.058796e-12,	5298.6,	4.906421e-10,	5298.53,	8.694204e-12,	5298.9,	2.937453e-14,	5298.67,	3.209957e-11
5070.2,	0.144208,	-0.00578511,	0,	5306.25,	3.001241e-13,	5306.03,	9.096955e-13,	5306.1,	3.028745e-12,	5305.88,	4.909242e-10,	5305.8,	8.689862e-12,	5306.17,	2.235996e-14,	5305.95,	3.215462e-11
5071.86,	0.111002,	-0.00693765,	0,	5313.52,	3.116868e-13,	5313.3,	8.950629e-13,	5313.375,	3.026716e-12,	5313.15,	4.908476e-10,	5313.08,	8.711339e-12,	5313.45,	2.877109e-14,	5313.23,	3.210256e-11
5073.53,	0.0775529,	-0.00681291,	0,	5320.8,	3.182883e-13,	5320.58,	8.985053e-13,	5320.65,	3.099543e-12,	5320.43,	4.900464e-10,	5320.35,	8.682787e-12,	5320.73,	2.4389e-14,	5320.5,	3.192017e-11
5075.19,	0.0443156,	-0.0107992,	0,	5328.08,	3.304788e-13,	5327.85,	9.018669e-13,	5327.93,	4.387398e-12,	5327.7,	4.881459e-10,	5327.63,	8.630566e-12,	5328,	3.512146e-14,	5327.78,	3.204982e-11
5076.79,	0.0123497,	-0.104894,	0,	5335.35,	3.56905e-13,	5335.13,	9.2562e-13,	5335.2,	8.360421e-12,	5334.98,	4.810387e-10,	5334.9,	8.28629e-12,	5335.28,	4.755086e-14,	5335.05,	3.253168e-11
5077.75,	0.0274383,	0.0179996,	0,	5342.63,	3.380239e-13,	5342.4,	9.130083e-13,	5342.48,	5.928364e-12,	5342.26,	4.865474e-10,	5342.18,	8.353511e-12,	5342.55,	3.084063e-14,	5342.33,	3.260353e-11
5079.42,	0.0607055,	0.00861949,	0,	5349.9,	3.160851e-13,	5349.68,	9.179453e-13,	5349.75,	4.498861e-12,	5349.53,	4.890605e-10,	5349.45,	8.435948e-12,	5349.83,	2.063062e-14,	5349.6,	3.253534e-11
5081.08,	0.0941128,	0.0060385,	0,	5357.18,	3.198962e-13,	5356.95,	9.204927e-13,	5357.03,	3.76598e-12,	5356.81,	4.898368e-10,	5356.73,	8.493495e-12,	5357.1,	3.412922e-14,	5356.88,	3.303716e-11
5082.75,	0.127464,	0.00528032,	0,	5364.45,	3.017239e-13,	5364.23,	9.200109e-13,	5364.3,	3.436639e-12,	5364.08,	4.911426e-10,	5364.01,	8.533934e-12,	5364.38,	4.463083e-14,	5364.15,	3.244979e-11
5084.42,	0.160725,	0.00431024,	0,	5371.73,	2.953938e-13,	5371.51,	9.000241e-13,	5371.58,	3.284898e-12,	5371.36,	4.909001e-10,	5371.28,	8.563357e-12,	5371.65,	1.16356e-14,	5371.43,	3.228457e-11
5086.08,	0.194109,	0.003696,	0,	5379,	2.803521e-13,	5378.78,	8.792801e-13,	5378.86,	3.190526e-12,	5378.63,	4.912377e-10,	5378.56,	8.597856e-12,	5378.93,	3.161823e-14,	5378.71,	3.234224e-11
5087.75,	0.227301,	0.00375077,	0,	5386.28,	2.929435e-13,	5386.06,	9.069212e-13,	5386.13,	3.078167e-12,	5385.91,	4.925935e-10,	5385.83,	8.617882e-12,	5386.2,	3.478126e-14,	5385.98,	3.240401e-11
5089.41,	0.260571,	0.00403146,	0,	5393.56,	3.014687e-13,	5393.33,	8.970433e-13,	5393.41,	3.09165e-12,	5393.18,	4.914153e-10,	5393.11,	8.617238e-12,	5393.48,	4.761567e-14,	5393.26,	3.23563e-11
5091.08,	0.293852,	0.00522193,	0,	5400.83,	2.899303e-13,	5400.61,	8.898303e-13,	5400.68,	3.072027e-12,	5400.46,	4.910792e-10,	5400.38,	8.623682e-12,	5400.76,	2.626009e-14,	5400.53,	3.23544e-11
5092.75,	0.327175,	0.00230805,	0,	5408.11,	2.973215e-13,	5407.88,	8.961523e-13,	5407.96,	3.067949e-12,	5407.73,	4.924397e-10,	5407.66,	8.657463e-12,	5408.03,	3.135093e-14,	5407.81,	3.233027e-11
5094.41,	0.360627,	0.00113937,	0,	5415.38,	2.820693e-13,	5415.16,	9.047302e-13,	5415.23,	3.081063e-12,	5415.01,	4.905016e-10,	5414.93,	1.931053e-11,	5415.31,	3.116463e-14,	5415.08,	3.219673e-11
5096.08,	0.393867,	0.000747193,	0,	5422.66,	2.808259e-13,	5422.43,	8.944473e-13,	5422.51,	3.047695e-12,	5422.29,	4.905786e-10,	5422.21,	8.99688e-12,	5422.58,	4.501962e-14,	5422.36,	3.212436e-11
5097.74,	0.427173,	0.000553989,	0,	5429.93,	2.605517e-13,	5429.71,	8.721805e-13,	5429.78,	3.045548e-12,	5429.56,	4.921733e-10,	5429.48,	8.728228e-12,	5429.86,	2.28338e-14,	5429.63,	3.222722e-11
5099.41,	0.460482,	0.00050388,	0,	5437.21,	2.513502e-13,	5436.98,	8.988942e-13,	5437.06,	3.032799e-12,	5436.84,	4.90388e-10,	5436.76,	8.682753e-12,	5437.13,	3.044778e-14,	5436.91,	3.219715e-11
5101.07,	0.493874,	0.000547933,	0,	5444.48,	2.666875e-13,	5444.26,	8.830952e-13,	5444.34,	3.032196e-12,	5444.11,	4.913653e-10,	5444.04,	8.70509e-12,	5444.41,	1.924957e-14,	5444.19,	3.221563e-11
5102.74,	0.527199,	0.000593511,	0,	5451.76,	2.785256e-13,	5451.54,	8.869953e-13,	5451.61,	3.035788e-12,	5451.39,	4.905131e-10,	5451.31,	8.685209e-12,	5451.68,	4.424203e-14,	5451.46,	3.231078e-11
5104.41,	0.560472,	0.000536335,	0,	5459.04,	2.948348e-13,	5458.81,	8.825363e-13,	5458.89,	3.033434e-12,	5458.66,	4.912575e-10,	5458.59,	8.697404e-12,	5458.96,	3.093782e-14,	5458.74,	3.222891e-11
5106.07,	0.593815,	0.000525855,	0,	5466.31,	2.89987e-13,	5466.09,	8.965615e-13,	5466.16,	3.054571e-12,	5465.94,	4.907034e-10,	5465.86,	8.694597e-12,	5466.24,	4.151233e-14,	5466.01,	3.219167e-11
5107.74,	0.6270712,	0.000598513,	0,	5473.59,	3.175391e-13,	5473.36,	8.746387e-13,	5473.44,	3.060562e-12,	5473.21,	4.898055e-10,	5473.14,	8.705981e-12,	5473.51,	3.031413e-14,	5473.29,	3.216391e-11
5109.4,	0.6604225,	0.000735677,	0,	5480.86,	3.113345e-13,	5480.64,	8.933498e-13,	5480.71,	3.031483e-12,	5480.49,	4.91045e-10,	5480.41,	8.702741e-12,	5480.79,	1.221879e-14,	5480.56,	3.222375e-11
5111.07,	0.693673,	0.000914133,	0,	5488.14,	3.106905e-13,	5487.91,	8.948604e-13,	5487.99,	3.044884e-12,	5487.77,	4.906353e-10,	5487.69,	8.690271e-12,	5488.06,	2.35628e-14,	5487.84,	3.224754e-11
5112.74,	0.727031,	0.00104353,	0,	5495.41,	3.156923e-13,	5495.19,	9.028915e-13,	5495.26,	3.72139e-12,	5495.04,	4.892726e-10,	5494.96,	8.690251e-12,	5495.34,	2.687974e-14,	5495.11,	3.224514e-11
5114.4,	0.76035,	0.00113362,	0,	5502.69,	3.221844e-13,	5502.46,	9.131907e-13,	5502.54,	8.525655e-12,	5502.32,	4.783283e-10,	5502.24,	8.348899e-12,	5502.61,	3.055308e-14,	5502.39,	3.234057e-11
5116.07,	0.793557,	0.0013475,	0,	5509.96,	3.156801e-13,	5509.74,	9.010973e-13,	5509.81,	6.437913e-12,	5509.59,	4.854451e-10,	5509.52,	8.356553e-12,	5509.89,	4.860791e-14,	5509.66,	3.255184e-11
5117.73,	0.826931,	0.00227654,	0,	5517.24,	3.094756e-13,	5517.02,	8.968044e-13,	5517.09,	4.75529e-12,	5516.87,	4.890666e-10,	5516.79,	8.413674e-12,	5517.16,	1.729342e-14,	5516.94,	3.242034e-11
5119.4,	0.860309,	0.00374044,	0,	5524.51,	2.978521e-13,	5524.29,	8.934591e-13,	5524.36,	3.890788e-12,	5524.14,	4.898902e-10,	5524.07,	8.47542e-12,	5524.44,	1.516313e-14,	5524.21,	3.247794e-11
5121.06,	0.893733,	0.00446716,	0,	5531.79,	3.109336e-13,	5531.57,	8.995097e-13,	5531.64,	3.521341e-12,	5531.42,	4.914379e-10,	5531.34,	8.53992e-12,	5531.72,	3.116057e-14,	5531.49,	3.253345e-11
5122.73,	0.927064,	0.00482726,	0,	5539.07,	3.040324e-13,	5538.84,	8.960754e-13,	5538.92,	3.315699e-12,	5538.69,	4.908721e-10,	5538.62,	8.556671e-12,	5538.99,	4.379653e-14,	5538.77,	3.234174e-11
5124.4,	0.960253,	0.00482972,	0,	5546.34,	2.789994e-13,	5546.12,	9.0294e-13,	5546.19,	3.191311e-12,	5545.97,	4.919053e-10,	5545.89,	8.590946e-12,	5546.27,	3.73287e-14,	5546.04,	3.24388e-11
5125.64,	0.985269,	0.00479998,	1,	5553.62,	2.787321e-13,	5553.39,	8.809811e-13,	5553.47,	3.095302e-12,	5553.24,	4.903717e-10,	5553.17,	8.605065e-12,	5553.54,	2.957703e-14,	5553.32,	3.220934e-11
5127.31,	1.01853,	0.00477264,	1,	5560.89,	2.871561e-13,	5560.67,	8.894051e-13,	5560.74,	3.100956e-12,	5560.52,	4.919878e-10,	5560.44,	8.602424e-12,	5560.82,	2.270825e-14,	5560.59,	3.232309e-11
5128.98,	1.05206,	0.00478388,	1,	5568.17,	2.936847e-13,	5567.94,	8.967112e-13,	5568.02,	3.075879e-12,	5567.8,	4.916788e-10,	5567.72,	8.633576e-12,	5568.09,	2.032685e-14,	5567.87,	3.23345e-11
5130.64,	1.08527,	0.00472066,	1,	5575.44,	2.817453e-13,	5575.22,	8.89162e-13,	5575.29,	3.075927e-12,	5575.07,	4.908777e-10,	5575,	8.629769e-12,	5575.37,	1.901466e-14,	5575.14,	3.208808e-11
5132.31,	1.11853,	0.0047456,	1,	5582.72,	2.777601e-13,	5582.49,	8.899882e-13,	5582.57,	3.070144e-12,	5582.35,	4.909931e-10,	5582.27,	1.206067e-11,	5582.64,	2.209265e-14,	5582.42,	3.234125e-11
5133.97,	1.15178,	0.00484848,	1,	5589.99,	2.66809e-13,	5589.77,	8.837675e-13,	5589.85,	3.051076e-12,	5589.62,	4.917208e-10,	5589.55,	9.348479e-12,	5589.92,	3.689939e-14,	5589.7,	3.236385e-11
5135.64,	1.18517,	0.00498536,	1,	5597.27,	2.584174e-13,	5597.05,	8.793125e-13,	5597.12,	3.07178e-12,	5596.9,	4.907793e-10,	5596.82,	8.772879e-12,	5597.19,	2.815143e-14,	5596.97,	3.217151e-11
5137.31,	1.21844,	0.00514097,	1,	5604.55,	2.707577e-13,	5604.32,	8.765706e-13,	5604.4,	3.038663e-12,	5604.17,	4.914696e-10,	5604.1,	8.700818e-12,	5604.47,	3.880694e-14,	5604.25,	3.232212e-11
5138.97,	1.25175,	0.00527568,	1,	5611.82,	2.651606e-13,	5611.6,	8.840145e-13,	5611.67,	3.062696e-12,	5611.45,	4.907436e-10,	5611.37,	8.650947e-12,	5611.75,	3.301546e-14,	5611.52,	3.214634e-11
5140.64,	1.2852,	0.00538327,	1,	5619.1,	2.60981e-13,	5618.87,	8.905108e-13,	5618.95,	3.029842e-12,	5618.72,	4.904175e-10,	5618.65,	8.693276e-12,	5619.02,	3.444106e-14,	5618.8,	3.222149e-11
5142.3,	1.31837,	0.00545032,	1,	5626.37,	2.895577e-13,	5626.15,	8.70763e-13,	5626.22,	3.015343e-12,	5626,	4.896705e-10,	5625.92,	8.706042e-12,	5626.3,	4.111543e-14,	5626.07,	3.210929e-11
5143.97,	1.35174,	0.00545293,	1,	5633.65,	2.853943e-13,	5633.42,	8.902191e-13,	5633.5,	3.06809e-12,	5633.28,	4.904881e-10,	5633.2,	8.694394e-12,	5633.57,	3.410086e-14,	5633.35,	3.227271e-11
5145.63,	1.38511,	0.00545223,	1,	5640.92,	2.733294e-13,	5640.7,	8.774899e-13,	5640.77,	3.056917e-12,	5640.55,	4.909835e-10,	5640.47,	8.714389e-12,	5640.85,	3.454231e-14,	5640.62,	3.21512e-11
5147.3,	1.41844,	0.00551354,	1,	5648.2,	2.929678e-13,	5647.97,	8.898708e-13,	5648.05,	3.05185e-12,	5647.83,	4.907147e-10,	5647.75,	8.709047e-12,	5648.12,	2.994558e-14,	5647.9,	3.226398e-11
5148.97,	1.45175,	0.00577748,	1,	5655.47,	3.045831e-13,	5655.25,	8.79924e-13,	5655.33,	3.055171e-12,	5655.1,	4.896644e-10,	5655.03,	8.692312e-12,	5655.4,	3.070697e-14,	5655.18,	3.213102e-11
5150.63,	1.48516,	0.00639504,	1,	5662.75,	3.008288e-13,	5662.53,	9.047789e-13,	5662.6,	3.37318e-12,	5662.38,	4.89815e-10,	5662.3,	8.713053e-12,	5662.67,	4.312018e-14,	5662.45,	3.208941e-11
5152.3,	1.51838,	0.007701,	1,	5670.03,	3.080905e-13,	5669.8,	8.874975e-13,	5669.88,	8.063698e-12,	5669.65,	4.804585e-10,	5669.58,	8.434742e-12,	5669.95,	3.074747e-14,	5669.73,	3.223388e-11
5153.96,	1.55165,	0.0103404,	1,	5677.3,	3.205563e-13,	5677.08,	8.955246e-13,	5677.15,	6.975719e-12,	5676.93,	4.829132e-10,	5676.85,	8.310723e-12,	5677.23,	2.587939e-14,	5677,	3.256984e-11
5155.63,	1.58508,	0.0156083,	1,	5684.58,	3.067054e-13,	5684.35,	9.052446e-13,	5684.43,	5.0222e-12,	5684.2,	4.881315e-10,	5684.13,	8.384514e-12,	5684.5,	2.796919e-14,	5684.28,	3.253588e-11
5157.3,	1.61836,	0.0259261,	1,	5691.85,	3.029672e-13,	5691.63,	8.925317e-13,	5691.7,	4.063719e-12,	5691.48,	4.896182e-10,	5691.4,	8.459686e-12,	5691.78,	4.023659e-14,	5691.55,	3.246881e-11
5158.96,	1.65165,	0.0459129,	1,	5699.13,	2.890596e-13,	5698.9,	8.869022e-13,	5698.98,	3.584856e-12,	5698.75,	4.911973e-10,	5698.68,	8.53355e-12,	5699.05,	3.61785e-14,	5698.83,	3.233564e-11
5160.63,	1.68509,	0.0849295,	1,	5706.4,	2.934376e-13,	5706.18,	8.794704e-13,	5706.25,	3.355113e-12,	5706.03,	4.904648e-10,	5705.95,	8.553172e-12,	5706.33,	3.423856e-14,	5706.1,	3.246698e-11
5161.89,	1.690403,	0.0692858,	1,	5713.68,	2.828793e-13,	5713.45,	8.852093e-13,	5713.53,	3.222034e-12,	5713.31,	4.915564e-10,	5713.23,	8.592331e-12,	5713.6,	3.51174e-14,	5713.38,	3.233335e-11
5163.56,	1.65697,	0.0203715,	1,	5720.95,	2.812755e-13,	5720.73,	8.765585e-13,	5720.8,	3.116281e-12,	5720.58,	4.911331e-10,	5720.51,	8.617944e-12,	5720.88,	3.59112e-14,	5720.65,	3.233478e-11
5165.23,	1.623553,	0.00727742,	1,	5728.23,	2.715839e-13,	5728.01,	8.946984e-13,	5728.08,	3.067742e-12,	5727.86,	4.896661e-10,	5727.78,	8.582073e-12,	5728.15,	4.812191e-14,	5727.93,	3.210482e-11
5166.89,	1.59025,	0.00278614,	1,	5735.5,	2.844669e-13,	5735.28,	8.898101e-13,	5735.35,	3.06517e-12,	5735.13,	4.906386e-10,	5735.06,	8.637546e-12,	5735.43,	3.971819e-14,	5735.2,	3.222456e-11
5168.56,	1.55684,	0.00109859,	1,	5742.78,	2.72483e-13,	5742.56,	8.873356e-13,	5742.63,	3.071022e-12,	5742.41,	4.901679e-10,	5742.33,	8.644498e-12,	5742.71,	2.575789e-14,	5742.48,	3.227818e-11
5170.22,	1.52359,	0.00043149,	1,	,	,	5749.83,	8.87777e-13,	5749.91,	3.083598e-12,	5749.68,	4.90489e-10,	5749.61,	8.899409e-12,	5749.98,	3.75879e-14,	5749.76,	3.223577e-11
5171.89,	1.49022,	0.000148755,	1,	,	,	,	,	,	,	,	,	,	,	,	,	,
5173.55,	1.45707,	1.95388e-05,	1,	,	,	,	,	,	,	,	,	,	,	,	,	,
5175.22,	1.42366,	-5.38504e-05,	1,	,	,	,	,	,	,	,	,	,	,	,	,	,
5176.89,	1.39029,	-0.000107304,	1,	,	,	,	,	,	,	,	,	,	,	,	,	,
5178.55,	1.35707,	-0.000154867,	1,	,	,	,	,	,	,	,	,	,	,	,	,	,
5180.22,	1.32373,	-0.000196172,	1,	,	,	,	,	,	,	,	,	,	,	,	,	,
5181.88,	1.29042,	-0.000238461,	1,	,	,	,	,	,	,	,	,	,	,	,	,	,
5183.55,	1.25715,	-0.000290532,	1,	,	,	,	,	,	,	,	,	,	,	,	,	,
5185.21,	1.22378,	-0.000354789,	1,	,	,	,	,	,	,	,	,	,	,	,	,	,
5186.88,	1.19045,	-0.000434711,	1,	,	,	,	,	,	,	,	,	,	,	,	,	,
5188.55,	1.157099,	-0.000544449,	1,	,	,	,	,	,	,	,	,	,	,	,	,	,
5190.21,	1.12378,	-0.000673973,	1,	,	,	,	,	,	,	,	,	,	,	,	,	,
5191.88,	1.09054,	-0.000814352,	1,	,	,	,	,	,	,	,	,	,	,	,	,	,
5193.54,	1.05731,	-0.000995691,	1,	,	,	,	,	,	,	,	,	,	,	,	,	,
5195.21,	1.02391,	-0.00123295,	1,	,	,	,	,	,	,	,	,	,	,	,	,	,
5196.88,	0.990461,	-0.00152542,	1,	,	,	,	,	,	,	,	,	,	,	,	,	,
5198.54,	0.95725,	-0.00192567,	1,	,	,	,	,	,	,	,	,	,	,	,	,	,
5200.21,	0.923903,	-0.00246351,	1,	,	,	,	,	,	,	,	,	,	,	,	,	,
5201.87,	0.890584,	-0.00324719,	1,	,	,	,	,	,	,	,	,	,	,	,	,	,
5203.54,	0.857322,	-0.00448228,	1,	,	,	,	,	,	,	,	,	,	,	,	,	,
5205.2,	0.8238951,	-0.00662575,	1,	,	,	,	,	,	,	,	,	,	,	,	,	,
5206.87,	0.790637,	-0.0110135,	1,	,	,	,	,	,	,	,	,	,	,	,	,	,
5208.54,	0.757415,	-0.0200216,	1,	,	,	,	,	,	,	,	,	,	,	,	,	,
5210.2,	0.724032,	-0.0269475,	1,	,	,	,	,	,	,	,	,	,	,	,	,	,
5211.87,	0.69072,	-0.0164431,	1,	,	,	,	,	,	,	,	,	,	,	,	,	,
5213.53,	0.6574173,	-0.00700781,	1,	,	,	,	,	,	,	,	,	,	,	,	,	,
5215.2,	0.624053,	-0.00341415,	1,	,	,	,	,	,	,	,	,	,	,	,	,	,
5216.86,	0.590663,	-0.00204693,	1,	,	,	,	,	,	,	,	,	,	,	,	,	,
5218.53,	0.557394,	-0.00144965,	1,	,	,	,	,	,	,	,	,	,	,	,	,	,
5220.2,	0.5240528,	-0.00120583,	1,	,	,	,	,	,	,	,	,	,	,	,	,	,
5221.86,	0.490741,	-0.00103189,	1,	,	,	,	,	,	,	,	,	,	,	,	,	,
5223.53,	0.457554,	-0.000902646,	1,	,	,	,	,	,	,	,	,	,	,	,	,	,
5225.19,	0.424058,	-0.00087384,	1,	,	,	,	,	,	,	,	,	,	,	,	,	,
5226.86,	0.390977,	-0.000957541,	1,	,	,	,	,	,	,	,	,	,	,	,	,	,
5228.53,	0.357625,	-0.00128804,	1,	,	,	,	,	,	,	,	,	,	,	,	,	,
5230.19,	0.324147,	-0.00220233,	1,	,	,	,	,	,	,	,	,	,	,	,	,	,
5231.86,	0.290811,	-0.00443226,	1,	,	,	,	,	,	,	,	,	,	,	,	,	,
5233.52,	0.2574259,	-0.00427925,	1,	,	,	,	,	,	,	,	,	,	,	,	,	,
5235.19,	0.224134,	-0.00374173,	1,	,	,	,	,	,	,	,	,	,	,	,	,	,
5236.85,	0.19073,	-0.00393982,	1,	,	,	,	,	,	,	,	,	,	,	,	,	,
5238.52,	0.15762,	-0.00524565,	1,	,	,	,	,	,	,	,	,	,	,	,	,	,
5240.19,	0.1242012,	-0.00662286,	1,	,	,	,	,	,	,	,	,	,	,	,	,	,
5241.85,	0.0909283,	-0.0069034,	1,	,	,	,	,	,	,	,	,	,	,	,	,	,
5243.52,	0.0575513,	-0.0075281,	1,	,	,	,	,	,	,	,	,	,	,	,	,	,
5245.18,	0.0242964,	-0.0337716,	1,	,	,	,	,	,	,	,	,	,	,	,	,	,
5246.08,	0.0140598,	0.0198761,	1,	,	,	,	,	,	,	,	,	,	,	,	,	,
5247.74,	0.04753124,	0.0115405,	1,	,	,	,	,	,	,	,	,	,	,	,	,	,
5249.41,	0.0808315,	0.00656626,	1,	,	,	,	,	,	,	,	,	,	,	,	,	,
5251.07,	0.114144,	0.00573549,	1,	,	,	,	,	,	,	,	,	,	,	,	,	,
5252.74,	0.147431,	0.00466389,	1,	,	,	,	,	,	,	,	,	,	,	,	,	,
5254.41,	0.180742,	0.00367648,	1,	,	,	,	,	,	,	,	,	,	,	,	,	,
5256.07,	0.2139831,	0.00389212,	1,	,	,	,	,	,	,	,	,	,	,	,	,	,
5257.74,	0.247348,	0.00360984,	1,	,	,	,	,	,	,	,	,	,	,	,	,	,
5259.4,	0.280639,	0.00512696,	1,	,	,	,	,	,	,	,	,	,	,	,	,	,
5261.07,	0.313974,	0.00345874,	1,	,	,	,	,	,	,	,	,	,	,	,	,	,
5262.73,	0.34711,	0.00130019,	1,	,	,	,	,	,	,	,	,	,	,	,	,	,
5264.4,	0.380468,	0.000800256,	1,	,	,	,	,	,	,	,	,	,	,	,	,	,
5266.07,	0.413952,	0.000527591,	1,	,	,	,	,	,	,	,	,	,	,	,	,	,
5267.73,	0.447161,	0.000401883,	1,	,	,	,	,	,	,	,	,	,	,	,	,	,
5269.4,	0.48057,	0.000409175,	1,	,	,	,	,	,	,	,	,	,	,	,	,	,
5271.06,	0.513689,	0.000493135,	1,	,	,	,	,	,	,	,	,	,	,	,	,	,
5272.73,	0.547164,	0.000459701,	1,	,	,	,	,	,	,	,	,	,	,	,	,	,
5274.39,	0.580443,	0.000411803,	1,	,	,	,	,	,	,	,	,	,	,	,	,	,
5276.06,	0.613722,	0.000429424,	1,	,	,	,	,	,	,	,	,	,	,	,	,	,
5277.73,	0.647004,	0.000506978,	1,	,	,	,	,	,	,	,	,	,	,	,	,	,
5279.39,	0.680356,	0.000624439,	1,	,	,	,	,	,	,	,	,	,	,	,	,	,
5281.06,	0.713737,	0.00075543,	1,	,	,	,	,	,	,	,	,	,	,	,	,	,
5282.72,	0.746943,	0.000878412,	1,	,	,	,	,	,	,	,	,	,	,	,	,	,
5284.39,	0.780374,	0.00104733,	1,	,	,	,	,	,	,	,	,	,	,	,	,	,
5286.06,	0.813595,	0.00167497,	1,	,	,	,	,	,	,	,	,	,	,	,	,	,
5287.72,	0.846993,	0.00322109,	1,	,	,	,	,	,	,	,	,	,	,	,	,	,
5289.39,	0.880255,	0.00435128,	1,	,	,	,	,	,	,	,	,	,	,	,	,	,
5291.05,	0.913548,	0.00476688,	1,	,	,	,	,	,	,	,	,	,	,	,	,	,
5292.72,	0.946904,	0.00477385,	1,	,	,	,	,	,	,	,	,	,	,	,	,	,
5294.13,	0.975127,	0.00470647,	2,	,	,	,	,	,	,	,	,	,	,	,	,	,
5295.63,	1.005307,	0.00463704,	2,	,	,	,	,	,	,	,	,	,	,	,	,	,
5297.3,	1.038435,	0.00462545,	2,	,	,	,	,	,	,	,	,	,	,	,	,	,
5298.97,	1.07192,	0.00455669,	2,	,	,	,	,	,	,	,	,	,	,	,	,	,
5300.63,	1.10512,	0.00451254,	2,	,	,	,	,	,	,	,	,	,	,	,	,	,
5302.3,	1.13849,	0.00457226,	2,	,	,	,	,	,	,	,	,	,	,	,	,	,
5303.96,	1.171822,	0.00468116,	2,	,	,	,	,	,	,	,	,	,	,	,	,	,
5305.63,	1.20517,	0.00481023,	2,	,	,	,	,	,	,	,	,	,	,	,	,	,
5307.29,	1.23846,	0.00494831,	2,	,	,	,	,	,	,	,	,	,	,	,	,	,
5308.96,	1.27176,	0.00505409,	2,	,	,	,	,	,	,	,	,	,	,	,	,	,
5310.63,	1.30514,	0.00512788,	2,	,	,	,	,	,	,	,	,	,	,	,	,	,
5312.29,	1.33838,	0.00515831,	2,	,	,	,	,	,	,	,	,	,	,	,	,	,
5313.96,	1.3718,	0.00516343,	2,	,	,	,	,	,	,	,	,	,	,	,	,	,
5315.62,	1.40502,	0.00517864,	2,	,	,	,	,	,	,	,	,	,	,	,	,	,
5317.29,	1.43846,	0.00536687,	2,	,	,	,	,	,	,	,	,	,	,	,	,	,
5318.95,	1.47158,	0.00584284,	2,	,	,	,	,	,	,	,	,	,	,	,	,	,
5320.62,	1.50497,	0.00684196,	2,	,	,	,	,	,	,	,	,	,	,	,	,	,
5322.29,	1.53831,	0.0088643,	2,	,	,	,	,	,	,	,	,	,	,	,	,	,
5323.95,	1.5716,	0.012915,	2,	,	,	,	,	,	,	,	,	,	,	,	,	,
5325.62,	1.60499,	0.0208943,	2,	,	,	,	,	,	,	,	,	,	,	,	,	,
5327.28,	1.63827,	0.036351,	2,	,	,	,	,	,	,	,	,	,	,	,	,	,
5328.95,	1.67168,	0.0664712,	2,	,	,	,	,	,	,	,	,	,	,	,	,	,
5330.37,	1.69977,	0.123092,	2,	,	,	,	,	,	,	,	,	,	,	,	,	,
5331.88,	1.67034,	0.0321005,	2,	,	,	,	,	,	,	,	,	,	,	,	,	,
5333.55,	1.63692,	0.0108684,	2,	,	,	,	,	,	,	,	,	,	,	,	,	,
5335.21,	1.60361,	0.00404775,	2,	,	,	,	,	,	,	,	,	,	,	,	,	,
5336.88,	1.57022,	0.00157045,	2,	,	,	,	,	,	,	,	,	,	,	,	,	,
5338.55,	1.53691,	0.00061023,	2,	,	,	,	,	,	,	,	,	,	,	,	,	,
5340.21,	1.50371,	0.000222983,	2,	,	,	,	,	,	,	,	,	,	,	,	,	,
5341.88,	1.47024,	4.49835e-05,	2,	,	,	,	,	,	,	,	,	,	,	,	,	,
5343.54,	1.43703,	-4.64112e-05,	2,	,	,	,	,	,	,	,	,	,	,	,	,	,
5345.21,	1.40375,	-0.000101151,	2,	,	,	,	,	,	,	,	,	,	,	,	,	,
5346.87,	1.3704,	-0.000137358,	2,	,	,	,	,	,	,	,	,	,	,	,	,	,
5348.54,	1.3371,	-0.000191897,	2,	,	,	,	,	,	,	,	,	,	,	,	,	,
5350.21,	1.30382,	-0.000230686,	2,	,	,	,	,	,	,	,	,	,	,	,	,	,
5351.87,	1.27052,	-0.000278038,	2,	,	,	,	,	,	,	,	,	,	,	,	,	,
5353.54,	1.23719,	-0.000341103,	2,	,	,	,	,	,	,	,	,	,	,	,	,	,
5355.2,	1.20375,	-0.000418116,	2,	,	,	,	,	,	,	,	,	,	,	,	,	,
5356.87,	1.17045,	-0.000511042,	2,	,	,	,	,	,	,	,	,	,	,	,	,	,
5358.54,	1.13711,	-0.000623442,	2,	,	,	,	,	,	,	,	,	,	,	,	,	,
5360.2,	1.10387,	-0.000757528,	2,	,	,	,	,	,	,	,	,	,	,	,	,	,
5361.87,	1.07064,	-0.000923263,	2,	,	,	,	,	,	,	,	,	,	,	,	,	,
5363.53,	1.03725,	-0.00113979,	2,	,	,	,	,	,	,	,	,	,	,	,	,	,
5365.2,	1.00383,	-0.00140704,	2,	,	,	,	,	,	,	,	,	,	,	,	,	,
5366.86,	0.970516,	-0.00176213,	2,	,	,	,	,	,	,	,	,	,	,	,	,	,
5368.53,	0.937264,	-0.00224011,	2,	,	,	,	,	,	,	,	,	,	,	,	,	,
5370.2,	0.904003,	-0.00291875,	2,	,	,	,	,	,	,	,	,	,	,	,	,	,
5371.86,	0.87059,	-0.00394531,	2,	,	,	,	,	,	,	,	,	,	,	,	,	,
5373.53,	0.8374477,	-0.00565919,	2,	,	,	,	,	,	,	,	,	,	,	,	,	,
5375.19,	0.803953,	-0.00896076,	2,	,	,	,	,	,	,	,	,	,	,	,	,	,
5376.86,	0.770707,	-0.016099,	2,	,	,	,	,	,	,	,	,	,	,	,	,	,
5378.52,	0.737378,	-0.0264218,	2,	,	,	,	,	,	,	,	,	,	,	,	,	,
5380.19,	0.7040996,	-0.0216873,	2,	,	,	,	,	,	,	,	,	,	,	,	,	,
5381.86,	0.670842,	-0.00963568,	2,	,	,	,	,	,	,	,	,	,	,	,	,	,
5383.52,	0.637421,	-0.00434456,	2,	,	,	,	,	,	,	,	,	,	,	,	,	,
5385.19,	0.604124,	-0.0024396,	2,	,	,	,	,	,	,	,	,	,	,	,	,	,
5386.85,	0.570706,	-0.00163817,	2,	,	,	,	,	,	,	,	,	,	,	,	,	,
5388.52,	0.5375,	-0.00130545,	2,	,	,	,	,	,	,	,	,	,	,	,	,	,
5390.19,	0.504158,	-0.00112582,	2,	,	,	,	,	,	,	,	,	,	,	,	,	,
5391.85,	0.470782,	-0.000964238,	2,	,	,	,	,	,	,	,	,	,	,	,	,	,
5393.52,	0.437529,	-0.000902867,	2,	,	,	,	,	,	,	,	,	,	,	,	,	,
5395.18,	0.404108,	-0.000942566,	2,	,	,	,	,	,	,	,	,	,	,	,	,	,
5396.85,	0.370827,	-0.00114911,	2,	,	,	,	,	,	,	,	,	,	,	,	,	,
5398.51,	0.337613,	-0.00167841,	2,	,	,	,	,	,	,	,	,	,	,	,	,	,
5400.18,	0.3041136,	-0.00362576,	2,	,	,	,	,	,	,	,	,	,	,	,	,	,
5401.85,	0.270769,	-0.00478366,	2,	,	,	,	,	,	,	,	,	,	,	,	,	,
5403.51,	0.237476,	-0.00385178,	2,	,	,	,	,	,	,	,	,	,	,	,	,	,
5405.18,	0.204126,	-0.00374483,	2,	,	,	,	,	,	,	,	,	,	,	,	,	,
5406.84,	0.170841,	-0.00449153,	2,	,	,	,	,	,	,	,	,	,	,	,	,	,
5408.51,	0.137657,	-0.00602209,	2,	,	,	,	,	,	,	,	,	,	,	,	,	,
5410.17,	0.104233,	-0.00716504,	2,	,	,	,	,	,	,	,	,	,	,	,	,	,
5411.84,	0.0709323,	-0.00677309,	2,	,	,	,	,	,	,	,	,	,	,	,	,	,
5413.51,	0.037571,	-0.0140145,	2,	,	,	,	,	,	,	,	,	,	,	,	,	,
5414.87,	0.0100541,	-0.128709,	2,	,	,	,	,	,	,	,	,	,	,	,	,	,
5416.07,	0.0341511,	0.01577,	2,	,	,	,	,	,	,	,	,	,	,	,	,	,
5417.73,	0.0674096,	0.00778756,	2,	,	,	,	,	,	,	,	,	,	,	,	,	,
5419.4,	0.100887,	0.00602488,	2,	,	,	,	,	,	,	,	,	,	,	,	,	,
5421.06,	0.134033,	0.00510741,	2,	,	,	,	,	,	,	,	,	,	,	,	,	,
5422.73,	0.167337,	0.00397101,	2,	,	,	,	,	,	,	,	,	,	,	,	,	,
5424.39,	0.2007113,	0.0037241,	2,	,	,	,	,	,	,	,	,	,	,	,	,	,
5426.06,	0.234105,	0.00361258,	2,	,	,	,	,	,	,	,	,	,	,	,	,	,
5427.73,	0.267219,	0.00436163,	2,	,	,	,	,	,	,	,	,	,	,	,	,	,
5429.39,	0.300617,	0.00489392,	2,	,	,	,	,	,	,	,	,	,	,	,	,	,
5431.06,	0.3338519,	0.00176695,	2,	,	,	,	,	,	,	,	,	,	,	,	,	,
5432.72,	0.367291,	0.000947662,	2,	,	,	,	,	,	,	,	,	,	,	,	,	,
5434.39,	0.400507,	0.000586304,	2,	,	,	,	,	,	,	,	,	,	,	,	,	,
5436.05,	0.433823,	0.000397053,	2,	,	,	,	,	,	,	,	,	,	,	,	,	,
5437.72,	0.4671402,	0.000353805,	2,	,	,	,	,	,	,	,	,	,	,	,	,	,
5439.39,	0.500434,	0.000413987,	2,	,	,	,	,	,	,	,	,	,	,	,	,	,
5441.05,	0.53374,	0.000454124,	2,	,	,	,	,	,	,	,	,	,	,	,	,	,
5442.72,	0.567188,	0.000386373,	2,	,	,	,	,	,	,	,	,	,	,	,	,	,
5444.38,	0.600434,	0.000369547,	2,	,	,	,	,	,	,	,	,	,	,	,	,	,
5446.05,	0.633591,	0.000410043,	2,	,	,	,	,	,	,	,	,	,	,	,	,	,
5447.72,	0.667111,	0.000491038,	2,	,	,	,	,	,	,	,	,	,	,	,	,	,
5449.38,	0.700419,	0.000610158,	2,	,	,	,	,	,	,	,	,	,	,	,	,	,
5451.05,	0.733711,	0.000724051,	2,	,	,	,	,	,	,	,	,	,	,	,	,	,
5452.71,	0.767004,	0.000888483,	2,	,	,	,	,	,	,	,	,	,	,	,	,	,
5454.38,	0.800317,	0.00123638,	2,	,	,	,	,	,	,	,	,	,	,	,	,	,
5456.04,	0.833741,	0.00254174,	2,	,	,	,	,	,	,	,	,	,	,	,	,	,
5457.71,	0.867081,	0.00412402,	2,	,	,	,	,	,	,	,	,	,	,	,	,	,
5459.38,	0.90028,	0.00466766,	2,	,	,	,	,	,	,	,	,	,	,	,	,	,
5461.04,	0.933571,	0.00478256,	2,	,	,	,	,	,	,	,	,	,	,	,	,	,
5462.71,	0.967028,	0.00465478,	2,	,	,	,	,	,	,	,	,	,	,	,	,	,
5463.96,	0.991863,	0.00458933,	3,	,	,	,	,	,	,	,	,	,	,	,	,	,
5465.62,	1.02515,	0.00455873,	3,	,	,	,	,	,	,	,	,	,	,	,	,	,
5467.29,	1.05858,	0.00450518,	3,	,	,	,	,	,	,	,	,	,	,	,	,	,
5468.95,	1.09188,	0.00443724,	3,	,	,	,	,	,	,	,	,	,	,	,	,	,
5470.62,	1.12522,	0.00445762,	3,	,	,	,	,	,	,	,	,	,	,	,	,	,
5472.29,	1.15842,	0.00453785,	3,	,	,	,	,	,	,	,	,	,	,	,	,	,
5473.95,	1.19178,	0.00465135,	3,	,	,	,	,	,	,	,	,	,	,	,	,	,
5475.62,	1.225108,	0.00479046,	3,	,	,	,	,	,	,	,	,	,	,	,	,	,
5477.28,	1.25853,	0.00490273,	3,	,	,	,	,	,	,	,	,	,	,	,	,	,
5478.95,	1.291714,	0.00498638,	3,	,	,	,	,	,	,	,	,	,	,	,	,	,
5480.61,	1.325018,	0.00503835,	3,	,	,	,	,	,	,	,	,	,	,	,	,	,
5482.28,	1.358241,	0.00504102,	3,	,	,	,	,	,	,	,	,	,	,	,	,	,
5483.95,	1.39179,	0.00504981,	3,	,	,	,	,	,	,	,	,	,	,	,	,	,
5485.61,	1.42496,	0.00515192,	3,	,	,	,	,	,	,	,	,	,	,	,	,	,
5487.28,	1.45837,	0.00549666,	3,	,	,	,	,	,	,	,	,	,	,	,	,	,
5488.94,	1.49157,	0.00625017,	3,	,	,	,	,	,	,	,	,	,	,	,	,	,
5490.61,	1.52514,	0.00779129,	3,	,	,	,	,	,	,	,	,	,	,	,	,	,
5492.28,	1.55826,	0.0108794,	3,	,	,	,	,	,	,	,	,	,	,	,	,	,
5493.94,	1.59157,	0.0169893,	3,	,	,	,	,	,	,	,	,	,	,	,	,	,
5495.61,	1.62491,	0.0289089,	3,	,	,	,	,	,	,	,	,	,	,	,	,	,
5497.27,	1.658214,	0.0520411,	3,	,	,	,	,	,	,	,	,	,	,	,	,	,
5498.94,	1.69161,	0.0974558,	3,	,	,	,	,	,	,	,	,	,	,	,	,	,
5500.21,	1.683566,	0.0528854,	3,	,	,	,	,	,	,	,	,	,	,	,	,	,
5501.87,	1.65031,	0.0164853,	3,	,	,	,	,	,	,	,	,	,	,	,	,	,
5503.54,	1.61698,	0.00595009,	3,	,	,	,	,	,	,	,	,	,	,	,	,	,
5505.2,	1.5838,	0.00226211,	3,	,	,	,	,	,	,	,	,	,	,	,	,	,
5506.87,	1.55031,	0.000873916,	3,	,	,	,	,	,	,	,	,	,	,	,	,	,
5508.53,	1.51689,	0.000321764,	3,	,	,	,	,	,	,	,	,	,	,	,	,	,
5510.2,	1.48368,	8.05591e-05,	3,	,	,	,	,	,	,	,	,	,	,	,	,	,
5511.87,	1.45038,	-2.5163e-05,	3,	,	,	,	,	,	,	,	,	,	,	,	,	,
5513.53,	1.41715,	-8.60051e-05,	3,	,	,	,	,	,	,	,	,	,	,	,	,	,
5515.2,	1.38375,	-0.000140251,	3,	,	,	,	,	,	,	,	,	,	,	,	,	,
5516.86,	1.350346,	-0.000189627,	3,	,	,	,	,	,	,	,	,	,	,	,	,	,
5518.53,	1.31717,	-0.000225509,	3,	,	,	,	,	,	,	,	,	,	,	,	,	,
5520.19,	1.28377,	-0.000261684,	3,	,	,	,	,	,	,	,	,	,	,	,	,	,
5521.86,	1.2504,	-0.000322777,	3,	,	,	,	,	,	,	,	,	,	,	,	,	,
5523.53,	1.21722,	-0.000395541,	3,	,	,	,	,	,	,	,	,	,	,	,	,	,
5525.19,	1.183768,	-0.000481281,	3,	,	,	,	,	,	,	,	,	,	,	,	,	,
5526.86,	1.1505,	-0.000580125,	3,	,	,	,	,	,	,	,	,	,	,	,	,	,
5528.52,	1.1172,	-0.000714521,	3,	,	,	,	,	,	,	,	,	,	,	,	,	,
5530.19,	1.08389,	-0.000867944,	3,	,	,	,	,	,	,	,	,	,	,	,	,	,
5531.86,	1.05057,	-0.00106425,	3,	,	,	,	,	,	,	,	,	,	,	,	,	,
5533.52,	1.01708,	-0.00131048,	3,	,	,	,	,	,	,	,	,	,	,	,	,	,
5535.19,	0.983964,	-0.00161486,	3,	,	,	,	,	,	,	,	,	,	,	,	,	,
5536.85,	0.950688,	-0.00204798,	3,	,	,	,	,	,	,	,	,	,	,	,	,	,
5538.52,	0.9173314,	-0.00262944,	3,	,	,	,	,	,	,	,	,	,	,	,	,	,
5540.18,	0.883969,	-0.00350166,	3,	,	,	,	,	,	,	,	,	,	,	,	,	,
5541.85,	0.850597,	-0.00488355,	3,	,	,	,	,	,	,	,	,	,	,	,	,	,
5543.52,	0.817254,	-0.00739912,	3,	,	,	,	,	,	,	,	,	,	,	,	,	,
5545.18,	0.783976,	-0.0127074,	3,	,	,	,	,	,	,	,	,	,	,	,	,	,
5546.85,	0.75072,	-0.0229395,	3,	,	,	,	,	,	,	,	,	,	,	,	,	,
5548.51,	0.717415,	-0.0261661,	3,	,	,	,	,	,	,	,	,	,	,	,	,	,
5550.18,	0.684032,	-0.013584,	3,	,	,	,	,	,	,	,	,	,	,	,	,	,
5551.85,	0.650794,	-0.00576948,	3,	,	,	,	,	,	,	,	,	,	,	,	,	,
5553.51,	0.617371,	-0.00298683,	3,	,	,	,	,	,	,	,	,	,	,	,	,	,
5555.18,	0.584003,	-0.0018925,	3,	,	,	,	,	,	,	,	,	,	,	,	,	,
5556.84,	0.550745,	-0.00142107,	3,	,	,	,	,	,	,	,	,	,	,	,	,	,
5558.51,	0.517368,	-0.00120249,	3,	,	,	,	,	,	,	,	,	,	,	,	,	,
5560.17,	0.484132,	-0.00103779,	3,	,	,	,	,	,	,	,	,	,	,	,	,	,
5561.84,	0.4508535,	-0.000926705,	3,	,	,	,	,	,	,	,	,	,	,	,	,	,
5563.51,	0.417575,	-0.000928027,	3,	,	,	,	,	,	,	,	,	,	,	,	,	,
5565.17,	0.384093,	-0.00105071,	3,	,	,	,	,	,	,	,	,	,	,	,	,	,
5566.84,	0.3509171,	-0.00144905,	3,	,	,	,	,	,	,	,	,	,	,	,	,	,
5568.5,	0.317302,	-0.00269711,	3,	,	,	,	,	,	,	,	,	,	,	,	,	,
5570.17,	0.284138,	-0.00494302,	3,	,	,	,	,	,	,	,	,	,	,	,	,	,
5571.83,	0.250775,	-0.00412515,	3,	,	,	,	,	,	,	,	,	,	,	,	,	,
5573.5,	0.217534,	-0.00369703,	3,	,	,	,	,	,	,	,	,	,	,	,	,	,
5575.17,	0.18423,	-0.00401012,	3,	,	,	,	,	,	,	,	,	,	,	,	,	,
5576.83,	0.1509032,	-0.00557568,	3,	,	,	,	,	,	,	,	,	,	,	,	,	,
5578.5,	0.117457,	-0.00695049,	3,	,	,	,	,	,	,	,	,	,	,	,	,	,
5580.16,	0.0841743,	-0.00676422,	3,	,	,	,	,	,	,	,	,	,	,	,	,	,
5581.83,	0.0509614,	-0.00844197,	3,	,	,	,	,	,	,	,	,	,	,	,	,	,
5583.5,	0.0177325,	-0.0602695,	3,	,	,	,	,	,	,	,	,	,	,	,	,	,
5584.39,	0.0207853,	0.0201149,	3,	,	,	,	,	,	,	,	,	,	,	,	,	,
5586.05,	0.0543058,	0.00998795,	3,	,	,	,	,	,	,	,	,	,	,	,	,	,
5587.72,	0.0874824,	0.00640222,	3,	,	,	,	,	,	,	,	,	,	,	,	,	,
5589.39,	0.120858,	0.00554653,	3,	,	,	,	,	,	,	,	,	,	,	,	,	,
5591.05,	0.154145,	0.00451033,	3,	,	,	,	,	,	,	,	,	,	,	,	,	,
5592.72,	0.187317,	0.00359394,	3,	,	,	,	,	,	,	,	,	,	,	,	,	,
5594.38,	0.220604,	0.00389743,	3,	,	,	,	,	,	,	,	,	,	,	,	,	,
5596.05,	0.253971,	0.00374661,	3,	,	,	,	,	,	,	,	,	,	,	,	,	,
5597.71,	0.287357,	0.00543118,	3,	,	,	,	,	,	,	,	,	,	,	,	,	,
5599.38,	0.320566,	0.00269311,	3,	,	,	,	,	,	,	,	,	,	,	,	,	,
5601.05,	0.353905,	0.00112789,	3,	,	,	,	,	,	,	,	,	,	,	,	,	,
5602.71,	0.387053,	0.000699934,	3,	,	,	,	,	,	,	,	,	,	,	,	,	,
5604.38,	0.4206098,	0.000443021,	3,	,	,	,	,	,	,	,	,	,	,	,	,	,
5606.04,	0.453889,	0.000331686,	3,	,	,	,	,	,	,	,	,	,	,	,	,	,
5607.71,	0.4872098,	0.00035605,	3,	,	,	,	,	,	,	,	,	,	,	,	,	,
5609.38,	0.520482,	0.000440328,	3,	,	,	,	,	,	,	,	,	,	,	,	,	,
5611.04,	0.5537532,	0.000401768,	3,	,	,	,	,	,	,	,	,	,	,	,	,	,
5612.71,	0.587184,	0.000346236,	3,	,	,	,	,	,	,	,	,	,	,	,	,	,
5614.37,	0.620478,	0.000366076,	3,	,	,	,	,	,	,	,	,	,	,	,	,	,
5616.04,	0.653667,	0.000427495,	3,	,	,	,	,	,	,	,	,	,	,	,	,	,
5617.7,	0.687063,	0.000523189,	3,	,	,	,	,	,	,	,	,	,	,	,	,	,
5619.37,	0.720332,	0.000623839,	3,	,	,	,	,	,	,	,	,	,	,	,	,	,
5621.04,	0.753713,	0.000778583,	3,	,	,	,	,	,	,	,	,	,	,	,	,	,
5622.7,	0.786977,	0.000983422,	3,	,	,	,	,	,	,	,	,	,	,	,	,	,
5624.37,	0.820399,	0.0018836,	3,	,	,	,	,	,	,	,	,	,	,	,	,	,
5626.03,	0.853587,	0.00361369,	3,	,	,	,	,	,	,	,	,	,	,	,	,	,
5627.7,	0.886955,	0.00453075,	3,	,	,	,	,	,	,	,	,	,	,	,	,	,
5629.36,	0.920436,	0.00481338,	3,	,	,	,	,	,	,	,	,	,	,	,	,	,
5631.03,	0.953686,	0.0046878,	3,	,	,	,	,	,	,	,	,	,	,	,	,	,
5632.28,	0.978631,	0.00460407,	4,	,	,	,	,	,	,	,	,	,	,	,	,	,
5633.95,	1.01195,	0.00452638,	4,	,	,	,	,	,	,	,	,	,	,	,	,	,
5635.61,	1.0451,	0.00450875,	4,	,	,	,	,	,	,	,	,	,	,	,	,	,
5637.28,	1.07857,	0.00443002,	4,	,	,	,	,	,	,	,	,	,	,	,	,	,
5638.94,	1.11184,	0.0044006,	4,	,	,	,	,	,	,	,	,	,	,	,	,	,
5640.61,	1.14525,	0.00445342,	4,	,	,	,	,	,	,	,	,	,	,	,	,	,
5642.27,	1.17844,	0.00456367,	4,	,	,	,	,	,	,	,	,	,	,	,	,	,
5643.94,	1.21177,	0.00469358,	4,	,	,	,	,	,	,	,	,	,	,	,	,	,
5645.61,	1.24512,	0.00480709,	4,	,	,	,	,	,	,	,	,	,	,	,	,	,
5647.27,	1.27841,	0.00490434,	4,	,	,	,	,	,	,	,	,	,	,	,	,	,
5648.94,	1.31177,	0.00497386,	4,	,	,	,	,	,	,	,	,	,	,	,	,	,
5650.6,	1.3452,	0.00499068,	4,	,	,	,	,	,	,	,	,	,	,	,	,	,
5652.27,	1.37844,	0.00498784,	4,	,	,	,	,	,	,	,	,	,	,	,	,	,
5653.94,	1.41168,	0.00503173,	4,	,	,	,	,	,	,	,	,	,	,	,	,	,
5655.6,	1.44499,	0.00526918,	4,	,	,	,	,	,	,	,	,	,	,	,	,	,
5657.27,	1.47842,	0.00583154,	4,	,	,	,	,	,	,	,	,	,	,	,	,	,
5658.93,	1.51173,	0.00699512,	4,	,	,	,	,	,	,	,	,	,	,	,	,	,
5660.6,	1.545,	0.00934666,	4,	,	,	,	,	,	,	,	,	,	,	,	,	,
5662.26,	1.57836,	0.0140186,	4,	,	,	,	,	,	,	,	,	,	,	,	,	,
5663.93,	1.61182,	0.0231976,	4,	,	,	,	,	,	,	,	,	,	,	,	,	,
5665.6,	1.64481,	0.0409778,	4,	,	,	,	,	,	,	,	,	,	,	,	,	,
5667.26,	1.6784,	0.075657,	4,	,	,	,	,	,	,	,	,	,	,	,	,	,
5668.53,	1.696896,	0.0964969,	4,	,	,	,	,	,	,	,	,	,	,	,	,	,
5670.19,	1.663666,	0.0255702,	4,	,	,	,	,	,	,	,	,	,	,	,	,	,
5671.86,	1.63031,	0.00886354,	4,	,	,	,	,	,	,	,	,	,	,	,	,	,
5673.53,	1.596999,	0.00332041,	4,	,	,	,	,	,	,	,	,	,	,	,	,	,
5675.19,	1.56367,	0.00127628,	4,	,	,	,	,	,	,	,	,	,	,	,	,	,
5676.86,	1.530303,	0.000476863,	4,	,	,	,	,	,	,	,	,	,	,	,	,	,
5678.52,	1.49699,	0.000154492,	4,	,	,	,	,	,	,	,	,	,	,	,	,	,
5680.19,	1.46362,	1.47073e-06,	4,	,	,	,	,	,	,	,	,	,	,	,	,	,
5681.85,	1.43037,	-7.69444e-05,	4,	,	,	,	,	,	,	,	,	,	,	,	,	,
5683.52,	1.39716,	-0.000132926,	4,	,	,	,	,	,	,	,	,	,	,	,	,	,
5685.19,	1.36365,	-0.000165681,	4,	,	,	,	,	,	,	,	,	,	,	,	,	,
5686.85,	1.33041,	-0.000207045,	4,	,	,	,	,	,	,	,	,	,	,	,	,	,
5688.52,	1.29705,	-0.000249398,	4,	,	,	,	,	,	,	,	,	,	,	,	,	,
5690.18,	1.26391,	-0.000296403,	4,	,	,	,	,	,	,	,	,	,	,	,	,	,
5691.85,	1.23051,	-0.000364643,	4,	,	,	,	,	,	,	,	,	,	,	,	,	,
5693.52,	1.19711,	-0.000434891,	4,	,	,	,	,	,	,	,	,	,	,	,	,	,
5695.18,	1.16384,	-0.000542615,	4,	,	,	,	,	,	,	,	,	,	,	,	,	,
5696.85,	1.13052,	-0.000665992,	4,	,	,	,	,	,	,	,	,	,	,	,	,	,
5698.51,	1.09729,	-0.000804889,	4,	,	,	,	,	,	,	,	,	,	,	,	,	,
5700.18,	1.06377,	-0.000977373,	4,	,	,	,	,	,	,	,	,	,	,	,	,	,
5701.84,	1.03058,	-0.00119458,	4,	,	,	,	,	,	,	,	,	,	,	,	,	,
5703.51,	0.997115,	-0.00148003,	4,	,	,	,	,	,	,	,	,	,	,	,	,	,
5705.18,	0.963834,	-0.00185719,	4,	,	,	,	,	,	,	,	,	,	,	,	,	,
5706.84,	0.930646,	-0.00237025,	4,	,	,	,	,	,	,	,	,	,	,	,	,	,
5708.51,	0.897326,	-0.00311242,	4,	,	,	,	,	,	,	,	,	,	,	,	,	,
5710.17,	0.863884,	-0.00425156,	4,	,	,	,	,	,	,	,	,	,	,	,	,	,
5711.84,	0.830748,	-0.00620417,	4,	,	,	,	,	,	,	,	,	,	,	,	,	,
5713.5,	0.797324,	-0.0101118,	4,	,	,	,	,	,	,	,	,	,	,	,	,	,
5715.17,	0.764016,	-0.0184758,	4,	,	,	,	,	,	,	,	,	,	,	,	,	,
5716.84,	0.73071,	-0.0275532,	4,	,	,	,	,	,	,	,	,	,	,	,	,	,
5718.5,	0.697376,	-0.018778,	4,	,	,	,	,	,	,	,	,	,	,	,	,	,
5720.17,	0.664035,	-0.00796917,	4,	,	,	,	,	,	,	,	,	,	,	,	,	,
5721.83,	0.630758,	-0.00376492,	4,	,	,	,	,	,	,	,	,	,	,	,	,	,
5723.5,	0.597453,	-0.0022207,	4,	,	,	,	,	,	,	,	,	,	,	,	,	,
5725.17,	0.564055,	-0.00155973,	4,	,	,	,	,	,	,	,	,	,	,	,	,	,
5726.83,	0.530872,	-0.00128737,	4,	,	,	,	,	,	,	,	,	,	,	,	,	,
5728.5,	0.497578,	-0.00110663,	4,	,	,	,	,	,	,	,	,	,	,	,	,	,
5730.16,	0.4641934,	-0.000960919,	4,	,	,	,	,	,	,	,	,	,	,	,	,	,
5731.83,	0.4308351,	-0.000913158,	4,	,	,	,	,	,	,	,	,	,	,	,	,	,
5733.49,	0.397541,	-0.000990654,	4,	,	,	,	,	,	,	,	,	,	,	,	,	,
5735.16,	0.364274,	-0.001265,	4,	,	,	,	,	,	,	,	,	,	,	,	,	,
5736.83,	0.330971,	-0.00196103,	4,	,	,	,	,	,	,	,	,	,	,	,	,	,
5738.49,	0.297457,	-0.00424187,	4,	,	,	,	,	,	,	,	,	,	,	,	,	,
5740.16,	0.264198,	-0.00460947,	4,	,	,	,	,	,	,	,	,	,	,	,	,	,
5741.82,	0.230839,	-0.00376495,	4,	,	,	,	,	,	,	,	,	,	,	,	,	,
5743.49,	0.197576,	-0.00378282,	4,	,	,	,	,	,	,	,	,	,	,	,	,	,
5745.16,	0.1642,	-0.00489882,	4,	,	,	,	,	,	,	,	,	,	,	,	,	,
5746.82,	0.130991,	-0.0062973,	4,	,	,	,	,	,	,	,	,	,	,	,	,	,
5748.49,	0.0976583,	-0.00712533,	4,	,	,	,	,	,	,	,	,	,	,	,	,	,
5749.82,	0.07095556,	-0.00667385,	4,	,	,	,	,	,	,	,	,	,	,	,	,	,